time,accx,accy,accz
15,  1117, -3408, -6986
21,  1106, -3416, -6942
28,  1130, -3410, -6950
38,  1128, -3401, -6975
44,  1146, -3401, -6966
51,  1163, -3398, -6977
57,  1165, -3394, -6990
63,  1167, -3386, -6998
69,  1170, -3381, -7013
75,  1178, -3381, -7012
81,  1185, -3376, -7012
87,  1203, -3375, -7017
93,  1213, -3378, -7011
99,  1221, -3382, -7008
105,  1230, -3384, -7005
111,  1235, -3388, -7009
117,  1244, -3389, -7013
123,  1252, -3382, -7021
129,  1292, -3379, -7001
135,  1299, -3377, -6988
141,  1301, -3379, -6988
148,  1307, -3385, -6992
154,  1316, -3385, -6997
161,  1317, -3388, -7006
168,  1321, -3395, -7007
174,  1325, -3405, -7012
183,  1322, -3346, -7000
199,  1324, -3357, -6992
204,  1324, -3367, -6986
210,  1330, -3376, -6989
216,  1336, -3386, -6992
222,  1340, -3396, -7000
228,  1352, -3399, -7002
234,  1360, -3402, -7002
240,  1367, -3407, -6999
246,  1375, -3411, -7000
253,  1378, -3418, -6997
259,  1382, -3419, -6996
265,  1387, -3433, -6996
271,  1388, -3439, -6995
277,  1390, -3440, -6984
283,  1402, -3445, -6984
290,  1412, -3452, -6981
296,  1427, -3458, -6969
302,  1458, -3468, -6938
308,  1458, -3471, -6948
314,  1450, -3463, -6971
320,  1441, -3464, -6986
326,  1439, -3468, -6992
332,  1434, -3468, -6996
339,  1439, -3474, -6984
349,  1450, -3484, -6974
359,  1452, -3491, -6963
369,  1456, -3494, -6967
379,  1454, -3499, -6972
389,  1454, -3496, -6977
399,  1440, -3497, -6986
409,  1439, -3503, -6993
419,  1438, -3510, -6980
429,  1426, -3516, -6979
439,  1428, -3526, -6968
450,  1436, -3530, -6952
459,  1443, -3539, -6942
483,  1454, -3549, -6936
489,  1446, -3551, -6938
495,  1427, -3550, -6963
501,  1372, -3533, -7018
510,  1342, -3539, -6987
519,  1369, -3577, -6942
531,  1394, -3591, -6924
541,  1414, -3596, -6906
550,  1431, -3601, -6905
562,  1433, -3598, -6954
570,  1433, -3594, -6930
580,  1412, -3585, -6936
590,  1358, -3568, -6963
600,  1332, -3567, -6956
609,  1352, -3581, -6944
620,  1379, -3596, -6944
633,  1389, -3606, -6929
639,  1418, -3624, -6892
649,  1434, -3643, -6871
660,  1424, -3631, -6870
670,  1440, -3658, -6753
680,  1552, -3684, -6776
690,  1595, -3713, -6673
699,  1582, -3726, -6723
709,  1516, -3712, -6873
720,  1395, -3676, -6944
731,  1276, -3645, -7053
743,  1191, -3620, -7158
750,  1136, -3618, -7122
760,  1130, -3632, -7051
771,  1179, -3662, -6995
780,  1232, -3692, -6888
793,  1273, -3720, -6804
804,  1289, -3736, -6818
810,  1261, -3739, -6833
819,  1217, -3734, -6867
835,  1168, -3726, -6938
841,  1133, -3722, -6960
849,  1110, -3721, -6939
859,  1113, -3730, -6928
870,  1126, -3748, -6892
880,  1133, -3762, -6839
890,  1136, -3773, -6827
901,  1126, -3777, -6845
910,  1101, -3775, -6856
920,  1075, -3771, -6881
930,  1051, -3766, -6902
939,  1032, -3766, -6888
950,  1018, -3767, -6877
961,  1020, -3774, -6874
973,  1018, -3778, -6845
989,  1011, -3783, -6842
995,  1000, -3785, -6857
1001,   984, -3780, -6862
1010,   967, -3777, -6866
1020,   954, -3772, -6880
1030,   944, -3770, -6879
1040,   940, -3773, -6878
1050,   938, -3774, -6874
1060,   936, -3771, -6861
1070,   925, -3769, -6850
1080,   919, -3766, -6852
1090,   906, -3765, -6860
1100,   892, -3767, -6865
1110,   881, -3768, -6870
1120,   876, -3766, -6872
1130,   870, -3766, -6863
1140,   866, -3762, -6863
1150,   860, -3759, -6865
1160,   848, -3757, -6864
1171,   840, -3756, -6868
1180,   832, -3753, -6875
1190,   822, -3747, -6874
1200,   810, -3742, -6876
1211,   805, -3742, -6877
1220,   793, -3736, -6874
1230,   791, -3733, -6876
1240,   787, -3729, -6868
1250,   780, -3723, -6869
1261,   772, -3722, -6868
1270,   769, -3717, -6867
1280,   761, -3713, -6869
1290,   759, -3712, -6880
1300,   751, -3708, -6887
1310,   751, -3699, -6885
1320,   747, -3698, -6884
1330,   743, -3696, -6883
1340,   737, -3691, -6890
1350,   726, -3684, -6889
1360,   720, -3678, -6890
1370,   716, -3677, -6897
1381,   718, -3672, -6896
1390,   720, -3667, -6895
1400,   821, -3713, -6767
1410,   628, -3617, -6757
1420,   618, -3602, -6804
1430,   659, -3605, -6871
1440,   622, -3615, -6539
1450,   676, -3628, -6706
1460,   727, -3635, -6822
1470,   702, -3638, -6590
1483,   714, -3638, -6792
1499,   699, -3621, -6942
1509,   616, -3594, -6855
1514,   652, -3610, -6878
1521,   692, -3621, -6944
1536,   703, -3628, -6792
1542,   750, -3644, -6783
1550,   612, -3564, -6916
1560,   544, -3516, -7004
1571,   588, -3530, -7067
1581,   586, -3546, -6949
1590,   527, -3515, -6981
1600,   490, -3492, -7091
1610,   423, -3466, -6967
1620,   438, -3457, -7107
1630,   493, -3468, -6998
1641,   602, -3499, -6899
1650,   753, -3559, -6786
1660,   869, -3610, -6682
1671,   896, -3605, -6682
1680,   834, -3556, -6781
1691,   761, -3512, -6883
1701,   717, -3490, -6955
1710,   755, -3491, -7025
1725,   792, -3499, -7008
1731,   797, -3490, -6997
1743,   780, -3472, -7015
1751,   837, -3489, -7012
1769,   847, -3492, -6976
1775,   850, -3490, -6902
1783,   860, -3490, -6924
1791,   851, -3472, -6930
1800,   856, -3467, -6937
1811,   859, -3471, -6929
1821,   856, -3462, -6940
1830,   853, -3458, -6952
1843,   861, -3463, -6950
1851,   864, -3472, -6969
1861,   755, -3420, -6982
1871,   772, -3427, -7047
1881,   790, -3443, -7098
1891,   779, -3452, -6958
1901,   780, -3453, -6991
1910,   786, -3451, -7014
1921,   789, -3452, -6964
1931,   805, -3445, -6963
1944,   827, -3443, -6970
1954,   825, -3453, -6973
1962,   813, -3463, -6961
1974,   776, -3467, -6971
1980,   770, -3471, -6963
1992,   774, -3475, -6953
2001,   779, -3479, -6955
2013,   779, -3477, -6943
2023,   785, -3481, -6943
2030,   785, -3479, -6941
2041,   786, -3479, -6937
2051,   781, -3477, -6929
2063,   771, -3493, -6999
2071,   730, -3483, -6983
2080,   699, -3459, -7010
2091,   684, -3450, -7068
2101,   684, -3458, -7016
2110,   736, -3477, -6940
2121,   818, -3503, -6887
2133,   893, -3528, -6801
2141,   934, -3544, -6769
2152,   939, -3548, -6813
2164,   918, -3540, -6868
2171,   708, -3384, -7221
2181,   699, -3423, -6993
2191,   725, -3461, -6947
2202,   793, -3481, -7056
2212,   809, -3492, -6877
2221,   824, -3506, -6846
2231,   843, -3511, -6996
2242,   778, -3490, -6945
2253,   692, -3461, -7041
2274,   688, -3459, -7134
2280,   680, -3461, -6975
2286,   702, -3464, -6960
2292,   735, -3473, -7014
2301,   737, -3472, -7023
2311,   718, -3460, -6999
2321,   698, -3447, -7009
2331,   714, -3449, -7002
2343,   771, -3468, -6952
2351,   855, -3495, -6892
2361,   950, -3566, -6769
2371,  1001, -3587, -6689
2381,   973, -3548, -6836
2391,   934, -3521, -6890
2401,   866, -3492, -6961
2411,   803, -3462, -7068
2421,   736, -3430, -7135
2431,   743, -3428, -7060
2441,   838, -3464, -6961
2451,   865, -3472, -6930
2461,   807, -3449, -6983
2471,   801, -3436, -7036
2482,   846, -3454, -6969
2503,   885, -3472, -6901
2509,   920, -3457, -6936
2515,   961, -3411, -7001
2521,   997, -3318, -7068
2531,   788, -3377, -7152
2541,   772, -3409, -7005
2552,   890, -3531, -6764
2561,  1010, -3571, -6751
2576,  1079, -3597, -6949
2582,  1070, -3608, -6994
2591,   841, -3340, -7140
2603,   773, -3185, -7183
2612,   783, -3269, -7164
2621,   727, -3398, -6962
2631,   849, -3444, -6889
2641,   931, -3452, -6773
2651,   991, -3453, -6847
2662,  1023, -3448, -6951
2671,  1028, -3433, -6896
2683,  1041, -3423, -6963
2691,  1039, -3404, -7019
2713,  1033, -3394, -6990
2723,  1049, -3390, -6995
2729,  1058, -3393, -6991
2735,  1065, -3394, -7017
2741,  1074, -3388, -6987
2751,  1081, -3394, -6985
2761,  1081, -3393, -7009
2772,  1083, -3385, -7021
2781,  1103, -3386, -7000
2791,  1122, -3391, -6984
2802,  1128, -3390, -6983
2811,  1125, -3389, -7010
2821,  1131, -3393, -7014
2831,  1141, -3394, -7034
2844,  1134, -3389, -7024
2852,  1138, -3386, -7020
2861,  1156, -3389, -7014
2872,  1171, -3394, -7018
2881,  1158, -3389, -7026
2897,  1153, -3383, -7018
2903,  1170, -3390, -6995
2912,  1183, -3396, -7002
2921,  1188, -3399, -7022
2932,  1196, -3403, -7019
2942,  1193, -3397, -7042
2953,  1174, -3391, -6974
2962,  1199, -3390, -7016
2974,  1235, -3405, -6986
2982,  1278, -3409, -6926
2991,  1329, -3433, -6929
3002,  1385, -3458, -6799
3012,  1435, -3480, -6905
3022,  1384, -3480, -6803
3032,  1271, -3443, -6885
3042,  1207, -3408, -7161
3051,  1145, -3387, -6983
3062,  1149, -3380, -7055
3071,  1192, -3391, -7147
3082,  1215, -3396, -6920
3092,  1276, -3416, -6946
3101,  1302, -3427, -6972
3111,  1282, -3427, -6916
3121,  1263, -3422, -6997
3131,  1254, -3425, -6999
3142,  1288, -3445, -6968
3151,  1320, -3451, -6955
3183,  1328, -3448, -6969
3189,  1363, -3466, -6957
3195,  1398, -3488, -6839
3201,  1457, -3513, -6869
3207,  1442, -3513, -6890
3213,  1364, -3485, -6932
3222,  1331, -3465, -7000
3231,  1360, -3477, -7008
3242,  1393, -3499, -6955
3252,  1388, -3510, -6933
3262,  1358, -3501, -6972
3271,  1324, -3493, -7007
3283,  1304, -3492, -7009
3292,  1298, -3502, -6981
3302,  1295, -3510, -7005
3313,  1304, -3513, -6973
3322,  1328, -3524, -6959
3333,  1334, -3531, -6941
3345,  1348, -3543, -6926
3352,  1355, -3553, -6911
3362,  1348, -3558, -6927
3372,  1332, -3563, -6935
3382,  1307, -3561, -6964
3392,  1316, -3574, -6941
3405,  1328, -3579, -6925
3414,  1327, -3584, -6926
3422,  1316, -3588, -6935
3432,  1297, -3587, -6954
3442,  1278, -3583, -6968
3456,  1252, -3585, -6985
3463,  1237, -3588, -6981
3473,  1221, -3591, -6979
3486,  1202, -3596, -6982
3493,  1186, -3599, -6981
3502,  1183, -3608, -6977
3512,  1187, -3613, -6962
3522,  1194, -3617, -6943
3532,  1198, -3622, -6919
3542,  1194, -3628, -6914
3552,  1195, -3626, -6914
3562,  1192, -3627, -6914
3572,  1191, -3632, -6918
3582,  1192, -3633, -6913
3593,  1157, -3621, -6947
3603,  1104, -3600, -6996
3612,  1063, -3583, -7031
3622,  1088, -3597, -6982
3633,  1096, -3601, -6959
3642,   932, -3535, -7147
3653,  1129, -3619, -6887
3665,  1189, -3632, -6848
3672,  1194, -3626, -6871
3682,  1200, -3621, -6886
3703,  1210, -3620, -6894
3710,  1212, -3618, -6900
3716,  1212, -3615, -6903
3722,  1218, -3608, -6909
3732,  1227, -3598, -6917
3742,  1225, -3596, -6918
3752,  1226, -3594, -6923
