time,accx,accy,accz
15,  1246, -6255,-14667
21,  1234, -6269,-14621
28,  1250, -6265,-14628
38,  1239, -6259,-14652
44,  1248, -6261,-14643
51,  1256, -6260,-14653
57,  1249, -6257,-14666
63,  1243, -6251,-14673
69,  1239, -6247,-14688
75,  1240, -6249,-14686
81,  1241, -6246,-14685
87,  1253, -6248,-14689
93,  1256, -6253,-14683
99,  1257, -6259,-14678
105,  1259, -6263,-14675
111,  1258, -6268,-14679
117,  1260, -6271,-14682
123,  1262, -6267,-14689
129,  1296, -6265,-14669
135,  1297, -6264,-14655
141,  1291, -6268,-14654
148,  1289, -6275,-14658
154,  1291, -6275,-14664
161,  1285, -6277,-14672
168,  1282, -6282,-14674
174,  1280, -6291,-14680
183,  1272, -6230,-14668
199,  1268, -6237,-14662
204,  1262, -6245,-14656
210,  1262, -6251,-14661
216,  1262, -6259,-14665
222,  1260, -6266,-14673
228,  1266, -6267,-14676
234,  1269, -6268,-14677
240,  1270, -6270,-14675
246,  1272, -6272,-14677
253,  1270, -6275,-14675
259,  1269, -6274,-14675
265,  1268, -6284,-14676
271,  1265, -6288,-14676
277,  1262, -6285,-14666
283,  1269, -6287,-14667
290,  1274, -6290,-14665
296,  1284, -6293,-14655
302,  1306, -6298,-14625
308,  1290, -6293,-14638
314,  1268, -6276,-14663
320,  1248, -6269,-14682
326,  1236, -6265,-14690
332,  1224, -6259,-14696
339,  1223, -6258,-14686
349,  1228, -6263,-14678
359,  1222, -6262,-14670
369,  1217, -6257,-14677
379,  1205, -6253,-14684
389,  1195, -6242,-14692
399,  1172, -6233,-14704
409,  1166, -6231,-14714
419,  1160, -6231,-14703
429,  1146, -6230,-14705
439,  1148, -6234,-14695
450,  1155, -6232,-14682
459,  1159, -6234,-14674
483,  1165, -6235,-14671
489,  1148, -6228,-14675
495,  1123, -6218,-14704
501,  1067, -6194,-14761
510,  1048, -6197,-14732
519,  1088, -6236,-14687
531,  1120, -6246,-14669
541,  1140, -6247,-14654
550,  1154, -6245,-14654
562,  1150, -6233,-14707
570,  1147, -6221,-14686
580,  1122, -6203,-14694
590,  1067, -6178,-14724
600,  1048, -6175,-14718
609,  1078, -6188,-14707
620,  1113, -6201,-14708
633,  1129, -6208,-14694
639,  1160, -6219,-14659
649,  1169, -6230,-14641
660,  1145, -6206,-14643
670,  1145, -6221,-14529
680,  1222, -6229,-14556
690,  1213, -6230,-14461
699,  1132, -6206,-14518
709,   997, -6154,-14677
720,   825, -6083,-14755
731,   681, -6026,-14870
743,   598, -5986,-14979
750,   570, -5980,-14947
760,   603, -5997,-14878
771,   687, -6030,-14823
780,   766, -6060,-14718
793,   816, -6080,-14636
804,   827, -6085,-14654
810,   789, -6074,-14672
819,   738, -6055,-14710
835,   690, -6037,-14784
841,   667, -6026,-14808
849,   664, -6023,-14790
859,   689, -6031,-14780
870,   720, -6048,-14745
880,   740, -6059,-14693
890,   749, -6065,-14683
901,   742, -6064,-14703
910,   720, -6055,-14716
920,   701, -6046,-14743
930,   687, -6038,-14765
939,   681, -6037,-14752
950,   682, -6037,-14742
961,   698, -6044,-14739
973,   707, -6047,-14712
989,   708, -6050,-14709
995,   703, -6050,-14725
1001,   694, -6043,-14731
1010,   684, -6039,-14736
1020,   681, -6033,-14750
1030,   682, -6032,-14750
1040,   691, -6036,-14748
1050,   699, -6038,-14744
1060,   705, -6036,-14731
1070,   702, -6034,-14721
1080,   703, -6032,-14723
1090,   697, -6032,-14731
1100,   691, -6034,-14736
1110,   688, -6037,-14741
1120,   692, -6038,-14742
1130,   695, -6041,-14733
1140,   700, -6039,-14732
1150,   701, -6038,-14733
1160,   696, -6038,-14732
1171,   694, -6040,-14736
1180,   692, -6039,-14742
1190,   689, -6036,-14740
1200,   683, -6034,-14741
1211,   685, -6037,-14741
1220,   680, -6035,-14737
1230,   683, -6035,-14738
1240,   685, -6036,-14729
1250,   684, -6032,-14729
1261,   681, -6035,-14727
1270,   683, -6034,-14725
1280,   680, -6034,-14726
1290,   682, -6037,-14736
1300,   680, -6036,-14742
1310,   684, -6031,-14739
1320,   685, -6035,-14737
1330,   685, -6037,-14735
1340,   682, -6035,-14740
1350,   674, -6033,-14738
1360,   672, -6031,-14738
1370,   672, -6034,-14744
1381,   677, -6033,-14741
1390,   683, -6033,-14739
1400,   784, -6082,-14610
1410,   562, -5979,-14602
1420,   553, -5962,-14649
1430,   605, -5979,-14712
1440,   593, -5998,-14377
1450,   659, -6019,-14542
1460,   710, -6034,-14656
1470,   687, -6039,-14423
1483,   690, -6038,-14625
1499,   664, -6023,-14775
1509,   587, -5999,-14687
1514,   636, -6022,-14708
1521,   680, -6041,-14771
1536,   693, -6052,-14618
1542,   731, -6068,-14610
1550,   569, -5984,-14743
1560,   508, -5937,-14831
1571,   574, -5964,-14890
1581,   595, -5993,-14768
1590,   561, -5975,-14795
1600,   560, -5973,-14899
1610,   543, -5973,-14766
1620,   615, -5999,-14894
1630,   735, -6049,-14770
1641,   899, -6114,-14658
1650,  1081, -6200,-14535
1660,  1190, -6261,-14428
1671,  1180, -6254,-14430
1680,  1072, -6197,-14533
1691,   962, -6149,-14638
1701,   900, -6129,-14709
1710,   928, -6138,-14777
1725,   956, -6151,-14759
1731,   946, -6144,-14746
1743,   918, -6128,-14764
1751,   967, -6148,-14761
1769,   962, -6149,-14725
1775,   944, -6143,-14653
1783,   925, -6138,-14677
1791,   886, -6112,-14686
1800,   863, -6099,-14696
1811,   837, -6095,-14690
1821,   804, -6076,-14704
1830,   773, -6063,-14719
1843,   755, -6058,-14721
1851,   732, -6056,-14743
1861,   597, -5993,-14759
1871,   607, -5993,-14826
1881,   619, -6008,-14877
1891,   609, -6014,-14738
1901,   606, -6012,-14772
1910,   609, -6008,-14795
1921,   610, -6006,-14746
1931,   625, -5996,-14747
1944,   645, -5992,-14754
1954,   643, -5999,-14758
1962,   630, -6008,-14746
1974,   593, -6010,-14757
1980,   588, -6012,-14750
1992,   595, -6014,-14741
2001,   601, -6017,-14743
2013,   602, -6013,-14732
2023,   610, -6015,-14732
2030,   610, -6012,-14731
2041,   610, -6009,-14728
2051,   605, -6005,-14720
2063,   595, -6018,-14791
2071,   561, -6010,-14774
2080,   545, -5990,-14801
2091,   554, -5990,-14856
2101,   585, -6010,-14801
2110,   666, -6041,-14721
2121,   763, -6075,-14665
2133,   833, -6101,-14579
2141,   849, -6109,-14550
2152,   819, -6098,-14598
2164,   760, -6075,-14656
2171,   530, -5908,-15014
2181,   539, -5950,-14785
2191,   584, -5993,-14737
2202,   659, -6018,-14845
2212,   678, -6029,-14666
2221,   687, -6039,-14636
2231,   691, -6039,-14787
2242,   616, -6012,-14738
2253,   535, -5982,-14834
2274,   553, -5988,-14925
2280,   573, -6002,-14763
2286,   622, -6017,-14744
2292,   677, -6038,-14795
2301,   699, -6047,-14800
2311,   703, -6046,-14772
2321,   711, -6047,-14778
2331,   758, -6066,-14765
2343,   844, -6103,-14709
2351,   945, -6142,-14644
2361,  1039, -6218,-14520
2371,  1057, -6233,-14442
2381,   983, -6180,-14594
2391,   904, -6140,-14653
2401,   808, -6101,-14727
2411,   734, -6067,-14835
2421,   676, -6039,-14901
2431,   710, -6049,-14822
2441,   829, -6098,-14719
2451,   859, -6111,-14685
2461,   801, -6090,-14738
2471,   806, -6085,-14788
2482,   864, -6112,-14718
2503,   909, -6136,-14648
2509,   939, -6124,-14683
2515,   979, -6080,-14746
2521,  1037, -5996,-14810
2531,   870, -6076,-14887
2541,   883, -6127,-14733
2552,  1016, -6264,-14486
2561,  1119, -6308,-14472
2576,  1162, -6332,-14671
2582,  1155, -6348,-14714
2591,   957, -6097,-14853
2603,   913, -5952,-14893
2612,   968, -6059,-14864
2621,   953, -6216,-14651
2631,  1079, -6279,-14572
2641,  1148, -6292,-14454
2651,  1183, -6292,-14529
2662,  1185, -6285,-14635
2671,  1164, -6266,-14582
2683,  1154, -6252,-14651
2691,  1130, -6231,-14708
2713,  1108, -6220,-14679
2723,  1110, -6216,-14684
2729,  1108, -6219,-14680
2735,  1102, -6221,-14706
2741,  1102, -6216,-14676
2751,  1101, -6223,-14674
2761,  1095, -6222,-14698
2772,  1093, -6215,-14708
2781,  1111, -6218,-14687
2791,  1125, -6225,-14671
2802,  1123, -6223,-14670
2811,  1113, -6220,-14697
2821,  1114, -6224,-14701
2831,  1120, -6225,-14722
2844,  1111, -6221,-14712
2852,  1114, -6219,-14707
2861,  1132, -6224,-14700
2872,  1145, -6229,-14704
2881,  1131, -6224,-14712
2897,  1127, -6220,-14704
2903,  1145, -6229,-14679
2912,  1156, -6236,-14686
2921,  1160, -6240,-14706
2932,  1167, -6244,-14703
2942,  1166, -6239,-14725
2953,  1152, -6235,-14656
2962,  1180, -6238,-14697
2974,  1220, -6256,-14666
2982,  1260, -6262,-14606
2991,  1298, -6282,-14610
3002,  1328, -6299,-14482
3012,  1338, -6305,-14594
3022,  1238, -6285,-14498
3032,  1090, -6227,-14588
3042,  1005, -6184,-14865
3051,   957, -6163,-14688
3062,   985, -6161,-14759
3071,  1051, -6181,-14848
3082,  1099, -6193,-14619
3092,  1173, -6216,-14644
3101,  1200, -6230,-14669
3111,  1180, -6227,-14614
3121,  1161, -6221,-14695
3131,  1157, -6226,-14696
3142,  1197, -6249,-14664
3151,  1230, -6255,-14652
3183,  1235, -6250,-14666
3189,  1266, -6265,-14656
3195,  1290, -6282,-14539
3201,  1320, -6295,-14573
3207,  1267, -6278,-14599
3213,  1156, -6232,-14647
3222,  1101, -6200,-14719
3231,  1121, -6204,-14729
3242,  1142, -6216,-14680
3252,  1119, -6215,-14660
3262,  1071, -6193,-14703
3271,  1025, -6174,-14742
3283,  1002, -6166,-14747
3292,   997, -6170,-14720
3302,   993, -6174,-14746
3313,  1006, -6173,-14716
3322,  1031, -6180,-14702
3333,  1037, -6181,-14687
3345,  1049, -6187,-14673
3352,  1051, -6189,-14661
3362,  1035, -6184,-14680
3372,  1011, -6179,-14692
3382,   979, -6167,-14723
3392,   985, -6172,-14703
3405,   991, -6169,-14690
3414,   981, -6162,-14694
3422,   961, -6155,-14706
3432,   934, -6144,-14729
3442,   912, -6130,-14746
3456,   887, -6124,-14765
3463,   879, -6122,-14763
3473,   871, -6120,-14763
3486,   864, -6123,-14768
3493,   864, -6126,-14767
3502,   880, -6135,-14764
3512,   904, -6143,-14748
3522,   930, -6149,-14729
3532,   948, -6156,-14706
3542,   957, -6162,-14701
3552,   969, -6161,-14701
3562,   977, -6162,-14700
3572,   987, -6169,-14705
3582,   999, -6172,-14699
3593,   975, -6161,-14733
3603,   942, -6146,-14781
3612,   935, -6140,-14813
3622,  1000, -6170,-14759
3633,  1043, -6189,-14731
3642,   918, -6139,-14914
3653,  1171, -6248,-14646
3665,  1242, -6271,-14603
3672,  1247, -6269,-14625
3682,  1252, -6268,-14639
3703,  1263, -6270,-14646
3710,  1265, -6271,-14650
3716,  1264, -6272,-14652
3722,  1267, -6268,-14657
3732,  1274, -6261,-14664
3742,  1270, -6262,-14664
3752,  1268, -6262,-14668
